File: Figures/10-13-09 ESEM/Inner Shell 1 1000x.txt
#FORMAT      : EMSA/MAS Spectral Data File
#VERSION     : 1.0
#TITLE       : Inner Shell 1 1000x
#DATE        : 13-OCT-2009
#TIME        : 14:30
#OWNER       :
#NPOINTS     : 1024.
#NCOLUMNS    : 1.
#XUNITS      : keV
#YUNITS      : counts
#DATATYPE    : XY
#XPERCHAN    : 0.0100000
#OFFSET      : -0.100000
#SIGNALTYPE  : EDS
#CHOFFSET    : 10.0000
#LIVETIME    : 60
#REALTIME    : 61.058
#BEAMKV      : 20.0000
#PROBECUR    : 0.000000
#MAGCAM      : 473.000
#XPOSITION mm: 0.0000
#YPOSITION mm: 0.0000
#ZPOSITION mm: 0.0000
##OXINSTELEMS: 6,8,11,13,14,19,20,29
##OXINSTLABEL: 8, 0.525, O
##OXINSTLABEL: 14, 1.740, Si
##OXINSTLABEL: 6, 0.277, C
##OXINSTLABEL: 11, 1.041, Na
##OXINSTLABEL: 13, 1.487, Al
##OXINSTLABEL: 29, 8.048, Cu
##OXINSTLABEL: 29, 8.905, Cu
##OXINSTLABEL: 29, 0.930, Cu
##OXINSTLABEL: 29, 0.832, Cu
##OXINSTLABEL: 29, 0.811, Cu
##OXINSTLABEL: 19, 3.314, K
##OXINSTLABEL: 19, 3.590, K
##OXINSTLABEL: 19, 0.262, K
##OXINSTLABEL: 20, 3.692, Ca
##OXINSTLABEL: 20, 4.013, Ca
##OXINSTLABEL: 20, 0.341, Ca
##OXINSTLABEL: 20, 0.306, Ca
#SPECTRUM    : Spectral Data Starts Here
-0.100, 0.
-0.090, 9.
-0.080, 18.
-0.070, 43.
-0.060, 93.
-0.050, 191.
-0.040, 317.
-0.030, 530.
-0.020, 757.
-0.010, 975.
0.000, 1226.
0.010, 1430.
0.020, 1532.
0.030, 1602.
0.040, 1552.
0.050, 1349.
0.060, 1099.
0.070, 780.
0.080, 519.
0.090, 304.
0.100, 155.
0.110, 71.
0.120, 27.
0.130, 13.
0.140, 4.
0.150, 1.
0.160, 3.
0.170, 5.
0.180, 5.
0.190, 6.
0.200, 10.
0.210, 11.
0.220, 16.
0.230, 23.
0.240, 24.
0.250, 30.
0.260, 25.
0.270, 19.
0.280, 22.
0.290, 18.
0.300, 16.
0.310, 13.
0.320, 10.
0.330, 13.
0.340, 9.
0.350, 6.
0.360, 5.
0.370, 2.
0.380, 4.
0.390, 7.
0.400, 12.
0.410, 16.
0.420, 28.
0.430, 36.
0.440, 42.
0.450, 57.
0.460, 92.
0.470, 130.
0.480, 177.
0.490, 211.
0.500, 242.
0.510, 266.
0.520, 291.
0.530, 281.
0.540, 248.
0.550, 188.
0.560, 129.
0.570, 89.
0.580, 68.
0.590, 48.
0.600, 21.
0.610, 9.
0.620, 10.
0.630, 8.
0.640, 5.
0.650, 4.
0.660, 3.
0.670, 2.
0.680, 4.
0.690, 4.
0.700, 5.
0.710, 6.
0.720, 5.
0.730, 3.
0.740, 2.
0.750, 3.
0.760, 6.
0.770, 6.
0.780, 6.
0.790, 9.
0.800, 6.
0.810, 6.
0.820, 6.
0.830, 6.
0.840, 5.
0.850, 6.
0.860, 8.
0.870, 6.
0.880, 8.
0.890, 7.
0.900, 8.
0.910, 8.
0.920, 9.
0.930, 8.
0.940, 8.
0.950, 11.
0.960, 12.
0.970, 10.
0.980, 12.
0.990, 13.
1.000, 12.
1.010, 17.
1.020, 18.
1.030, 20.
1.040, 21.
1.050, 19.
1.060, 19.
1.070, 17.
1.080, 14.
1.090, 17.
1.100, 12.
1.110, 9.
1.120, 9.
1.130, 7.
1.140, 6.
1.150, 5.
1.160, 5.
1.170, 6.
1.180, 7.
1.190, 7.
1.200, 5.
1.210, 4.
1.220, 8.
1.230, 8.
1.240, 9.
1.250, 10.
1.260, 9.
1.270, 7.
1.280, 8.
1.290, 14.
1.300, 14.
1.310, 8.
1.320, 9.
1.330, 9.
1.340, 10.
1.350, 8.
1.360, 5.
1.370, 4.
1.380, 7.
1.390, 11.
1.400, 13.
1.410, 11.
1.420, 11.
1.430, 11.
1.440, 19.
1.450, 19.
1.460, 15.
1.470, 16.
1.480, 17.
1.490, 22.
1.500, 22.
1.510, 19.
1.520, 18.
1.530, 19.
1.540, 17.
1.550, 11.
1.560, 9.
1.570, 13.
1.580, 14.
1.590, 18.
1.600, 18.
1.610, 20.
1.620, 27.
1.630, 38.
1.640, 47.
1.650, 69.
1.660, 106.
1.670, 174.
1.680, 233.
1.690, 299.
1.700, 399.
1.710, 512.
1.720, 611.
1.730, 681.
1.740, 687.
1.750, 655.
1.760, 590.
1.770, 529.
1.780, 438.
1.790, 322.
1.800, 242.
1.810, 195.
1.820, 139.
1.830, 96.
1.840, 77.
1.850, 48.
1.860, 25.
1.870, 18.
1.880, 17.
1.890, 14.
1.900, 13.
1.910, 10.
1.920, 7.
1.930, 8.
1.940, 7.
1.950, 6.
1.960, 4.
1.970, 7.
1.980, 8.
1.990, 5.
2.000, 3.
2.010, 3.
2.020, 4.
2.030, 5.
2.040, 5.
2.050, 4.
2.060, 4.
2.070, 4.
2.080, 2.
2.090, 2.
2.100, 1.
2.110, 5.
2.120, 8.
2.130, 6.
2.140, 6.
2.150, 4.
2.160, 1.
2.170, 4.
2.180, 4.
2.190, 6.
2.200, 5.
2.210, 4.
2.220, 3.
2.230, 5.
2.240, 4.
2.250, 4.
2.260, 6.
2.270, 6.
2.280, 7.
2.290, 5.
2.300, 5.
2.310, 9.
2.320, 7.
2.330, 7.
2.340, 6.
2.350, 4.
2.360, 5.
2.370, 4.
2.380, 5.
2.390, 5.
2.400, 3.
2.410, 5.
2.420, 4.
2.430, 4.
2.440, 4.
2.450, 3.
2.460, 4.
2.470, 3.
2.480, 4.
2.490, 6.
2.500, 6.
2.510, 6.
2.520, 5.
2.530, 3.
2.540, 5.
2.550, 6.
2.560, 7.
2.570, 5.
2.580, 5.
2.590, 5.
2.600, 5.
2.610, 6.
2.620, 6.
2.630, 5.
2.640, 6.
2.650, 6.
2.660, 6.
2.670, 5.
2.680, 7.
2.690, 8.
2.700, 5.
2.710, 3.
2.720, 4.
2.730, 4.
2.740, 7.
2.750, 7.
2.760, 7.
2.770, 7.
2.780, 6.
2.790, 5.
2.800, 6.
2.810, 5.
2.820, 3.
2.830, 2.
2.840, 3.
2.850, 5.
2.860, 4.
2.870, 5.
2.880, 5.
2.890, 6.
2.900, 5.
2.910, 3.
2.920, 3.
2.930, 2.
2.940, 3.
2.950, 4.
2.960, 3.
2.970, 4.
2.980, 4.
2.990, 3.
3.000, 5.
3.010, 5.
3.020, 3.
3.030, 5.
3.040, 6.
3.050, 4.
3.060, 5.
3.070, 5.
3.080, 3.
3.090, 3.
3.100, 4.
3.110, 5.
3.120, 5.
3.130, 4.
3.140, 4.
3.150, 3.
3.160, 3.
3.170, 5.
3.180, 5.
3.190, 4.
3.200, 3.
3.210, 6.
3.220, 6.
3.230, 3.
3.240, 11.
3.250, 10.
3.260, 9.
3.270, 11.
3.280, 10.
3.290, 7.
3.300, 6.
3.310, 6.
3.320, 7.
3.330, 7.
3.340, 8.
3.350, 6.
3.360, 6.
3.370, 8.
3.380, 8.
3.390, 8.
3.400, 5.
3.410, 7.
3.420, 7.
3.430, 6.
3.440, 8.
3.450, 8.
3.460, 6.
3.470, 4.
3.480, 4.
3.490, 4.
3.500, 3.
3.510, 4.
3.520, 7.
3.530, 5.
3.540, 4.
3.550, 3.
3.560, 6.
3.570, 5.
3.580, 7.
3.590, 8.
3.600, 6.
3.610, 6.
3.620, 5.
3.630, 6.
3.640, 8.
3.650, 5.
3.660, 7.
3.670, 7.
3.680, 3.
3.690, 4.
3.700, 10.
3.710, 11.
3.720, 10.
3.730, 9.
3.740, 7.
3.750, 5.
3.760, 5.
3.770, 6.
3.780, 3.
3.790, 4.
3.800, 4.
3.810, 4.
3.820, 5.
3.830, 4.
3.840, 3.
3.850, 4.
3.860, 4.
3.870, 7.
3.880, 5.
3.890, 2.
3.900, 4.
3.910, 3.
3.920, 0.
3.930, 2.
3.940, 3.
3.950, 2.
3.960, 4.
3.970, 5.
3.980, 5.
3.990, 3.
4.000, 4.
4.010, 3.
4.020, 5.
4.030, 5.
4.040, 4.
4.050, 3.
4.060, 2.
4.070, 3.
4.080, 2.
4.090, 2.
4.100, 5.
4.110, 4.
4.120, 4.
4.130, 4.
4.140, 6.
4.150, 4.
4.160, 3.
4.170, 3.
4.180, 3.
4.190, 2.
4.200, 3.
4.210, 4.
4.220, 5.
4.230, 4.
4.240, 3.
4.250, 3.
4.260, 3.
4.270, 3.
4.280, 2.
4.290, 4.
4.300, 3.
4.310, 3.
4.320, 3.
4.330, 2.
4.340, 3.
4.350, 4.
4.360, 8.
4.370, 5.
4.380, 2.
4.390, 1.
4.400, 5.
4.410, 5.
4.420, 3.
4.430, 1.
4.440, 3.
4.450, 6.
4.460, 4.
4.470, 5.
4.480, 4.
4.490, 3.
4.500, 3.
4.510, 4.
4.520, 3.
4.530, 4.
4.540, 3.
4.550, 4.
4.560, 3.
4.570, 3.
4.580, 5.
4.590, 3.
4.600, 4.
4.610, 4.
4.620, 3.
4.630, 2.
4.640, 2.
4.650, 4.
4.660, 6.
4.670, 3.
4.680, 1.
4.690, 2.
4.700, 1.
4.710, 2.
4.720, 4.
4.730, 3.
4.740, 2.
4.750, 2.
4.760, 2.
4.770, 2.
4.780, 2.
4.790, 1.
4.800, 5.
4.810, 3.
4.820, 2.
4.830, 4.
4.840, 3.
4.850, 3.
4.860, 4.
4.870, 2.
4.880, 4.
4.890, 5.
4.900, 3.
4.910, 1.
4.920, 2.
4.930, 4.
4.940, 2.
4.950, 2.
4.960, 3.
4.970, 3.
4.980, 2.
4.990, 1.
5.000, 3.
5.010, 4.
5.020, 3.
5.030, 1.
5.040, 2.
5.050, 2.
5.060, 5.
5.070, 4.
5.080, 3.
5.090, 2.
5.100, 5.
5.110, 4.
5.120, 4.
5.130, 2.
5.140, 0.
5.150, 2.
5.160, 2.
5.170, 2.
5.180, 2.
5.190, 1.
5.200, 1.
5.210, 3.
5.220, 5.
5.230, 4.
5.240, 3.
5.250, 2.
5.260, 2.
5.270, 2.
5.280, 2.
5.290, 4.
5.300, 4.
5.310, 2.
5.320, 2.
5.330, 5.
5.340, 4.
5.350, 1.
5.360, 2.
5.370, 3.
5.380, 4.
5.390, 4.
5.400, 3.
5.410, 3.
5.420, 2.
5.430, 2.
5.440, 4.
5.450, 4.
5.460, 6.
5.470, 4.
5.480, 1.
5.490, 1.
5.500, 1.
5.510, 2.
5.520, 4.
5.530, 3.
5.540, 3.
5.550, 2.
5.560, 2.
5.570, 2.
5.580, 1.
5.590, 1.
5.600, 3.
5.610, 3.
5.620, 2.
5.630, 3.
5.640, 4.
5.650, 3.
5.660, 1.
5.670, 0.
5.680, 2.
5.690, 2.
5.700, 2.
5.710, 3.
5.720, 6.
5.730, 3.
5.740, 0.
5.750, 4.
5.760, 6.
5.770, 6.
5.780, 4.
5.790, 3.
5.800, 2.
5.810, 3.
5.820, 4.
5.830, 4.
5.840, 3.
5.850, 2.
5.860, 2.
5.870, 3.
5.880, 3.
5.890, 3.
5.900, 4.
5.910, 3.
5.920, 3.
5.930, 3.
5.940, 2.
5.950, 4.
5.960, 4.
5.970, 1.
5.980, 3.
5.990, 3.
6.000, 4.
6.010, 2.
6.020, 2.
6.030, 6.
6.040, 4.
6.050, 1.
6.060, 2.
6.070, 3.
6.080, 4.
6.090, 2.
6.100, 3.
6.110, 3.
6.120, 3.
6.130, 2.
6.140, 3.
6.150, 2.
6.160, 3.
6.170, 2.
6.180, 2.
6.190, 2.
6.200, 3.
6.210, 7.
6.220, 5.
6.230, 2.
6.240, 3.
6.250, 2.
6.260, 3.
6.270, 3.
6.280, 2.
6.290, 3.
6.300, 3.
6.310, 3.
6.320, 1.
6.330, 3.
6.340, 4.
6.350, 3.
6.360, 2.
6.370, 2.
6.380, 3.
6.390, 5.
6.400, 8.
6.410, 7.
6.420, 6.
6.430, 6.
6.440, 3.
6.450, 0.
6.460, 3.
6.470, 2.
6.480, 3.
6.490, 3.
6.500, 3.
6.510, 3.
6.520, 2.
6.530, 3.
6.540, 4.
6.550, 3.
6.560, 2.
6.570, 1.
6.580, 2.
6.590, 2.
6.600, 2.
6.610, 2.
6.620, 3.
6.630, 3.
6.640, 5.
6.650, 4.
6.660, 1.
6.670, 1.
6.680, 3.
6.690, 3.
6.700, 1.
6.710, 2.
6.720, 1.
6.730, 1.
6.740, 3.
6.750, 2.
6.760, 1.
6.770, 4.
6.780, 3.
6.790, 2.
6.800, 1.
6.810, 2.
6.820, 4.
6.830, 2.
6.840, 2.
6.850, 2.
6.860, 2.
6.870, 3.
6.880, 4.
6.890, 3.
6.900, 2.
6.910, 3.
6.920, 6.
6.930, 4.
6.940, 3.
6.950, 2.
6.960, 2.
6.970, 3.
6.980, 2.
6.990, 1.
7.000, 1.
7.010, 1.
7.020, 1.
7.030, 1.
7.040, 2.
7.050, 4.
7.060, 5.
7.070, 3.
7.080, 1.
7.090, 2.
7.100, 1.
7.110, 3.
7.120, 3.
7.130, 3.
7.140, 1.
7.150, 1.
7.160, 2.
7.170, 2.
7.180, 1.
7.190, 1.
7.200, 1.
7.210, 0.
7.220, 1.
7.230, 2.
7.240, 1.
7.250, 1.
7.260, 0.
7.270, 0.
7.280, 3.
7.290, 2.
7.300, 0.
7.310, 1.
7.320, 3.
7.330, 1.
7.340, 0.
7.350, 1.
7.360, 2.
7.370, 1.
7.380, 2.
7.390, 1.
7.400, 4.
7.410, 3.
7.420, 1.
7.430, 1.
7.440, 1.
7.450, 0.
7.460, 0.
7.470, 1.
7.480, 1.
7.490, 2.
7.500, 1.
7.510, 1.
7.520, 2.
7.530, 2.
7.540, 3.
7.550, 2.
7.560, 3.
7.570, 2.
7.580, 1.
7.590, 2.
7.600, 3.
7.610, 2.
7.620, 1.
7.630, 2.
7.640, 1.
7.650, 2.
7.660, 2.
7.670, 3.
7.680, 2.
7.690, 2.
7.700, 2.
7.710, 3.
7.720, 2.
7.730, 1.
7.740, 1.
7.750, 2.
7.760, 2.
7.770, 2.
7.780, 3.
7.790, 1.
7.800, 3.
7.810, 3.
7.820, 3.
7.830, 2.
7.840, 2.
7.850, 2.
7.860, 1.
7.870, 2.
7.880, 3.
7.890, 3.
7.900, 1.
7.910, 3.
7.920, 5.
7.930, 6.
7.940, 4.
7.950, 4.
7.960, 7.
7.970, 6.
7.980, 6.
7.990, 4.
8.000, 5.
8.010, 5.
8.020, 2.
8.030, 1.
8.040, 2.
8.050, 3.
8.060, 2.
8.070, 5.
8.080, 5.
8.090, 5.
8.100, 3.
8.110, 2.
8.120, 1.
8.130, 2.
8.140, 3.
8.150, 2.
8.160, 1.
8.170, 2.
8.180, 1.
8.190, 2.
8.200, 2.
8.210, 1.
8.220, 0.
8.230, 1.
8.240, 2.
8.250, 2.
8.260, 3.
8.270, 3.
8.280, 1.
8.290, 1.
8.300, 2.
8.310, 3.
8.320, 2.
8.330, 3.
8.340, 2.
8.350, 3.
8.360, 2.
8.370, 1.
8.380, 2.
8.390, 2.
8.400, 1.
8.410, 1.
8.420, 1.
8.430, 2.
8.440, 1.
8.450, 0.
8.460, 2.
8.470, 2.
8.480, 1.
8.490, 1.
8.500, 2.
8.510, 2.
8.520, 2.
8.530, 1.
8.540, 0.
8.550, 0.
8.560, 1.
8.570, 1.
8.580, 2.
8.590, 2.
8.600, 2.
8.610, 1.
8.620, 1.
8.630, 0.
8.640, 1.
8.650, 2.
8.660, 4.
8.670, 4.
8.680, 3.
8.690, 2.
8.700, 1.
8.710, 2.
8.720, 1.
8.730, 2.
8.740, 1.
8.750, 1.
8.760, 1.
8.770, 2.
8.780, 1.
8.790, 1.
8.800, 2.
8.810, 2.
8.820, 3.
8.830, 1.
8.840, 1.
8.850, 2.
8.860, 2.
8.870, 1.
8.880, 1.
8.890, 2.
8.900, 1.
8.910, 1.
8.920, 2.
8.930, 1.
8.940, 2.
8.950, 2.
8.960, 2.
8.970, 1.
8.980, 2.
8.990, 2.
9.000, 2.
9.010, 1.
9.020, 0.
9.030, 1.
9.040, 2.
9.050, 2.
9.060, 0.
9.070, 2.
9.080, 2.
9.090, 1.
9.100, 1.
9.110, 1.
9.120, 2.
9.130, 1.
9.140, 0.
9.150, 0.
9.160, 0.
9.170, 1.
9.180, 1.
9.190, 0.
9.200, 0.
9.210, 0.
9.220, 0.
9.230, 1.
9.240, 1.
9.250, 2.
9.260, 2.
9.270, 1.
9.280, 2.
9.290, 1.
9.300, 1.
9.310, 2.
9.320, 1.
9.330, 0.
9.340, 3.
9.350, 2.
9.360, 0.
9.370, 1.
9.380, 1.
9.390, 1.
9.400, 1.
9.410, 0.
9.420, 0.
9.430, 1.
9.440, 1.
9.450, 2.
9.460, 1.
9.470, 1.
9.480, 2.
9.490, 2.
9.500, 1.
9.510, 1.
9.520, 1.
9.530, 0.
9.540, 1.
9.550, 0.
9.560, 1.
9.570, 1.
9.580, 1.
9.590, 2.
9.600, 2.
9.610, 3.
9.620, 1.
9.630, 1.
9.640, 1.
9.650, 1.
9.660, 2.
9.670, 2.
9.680, 0.
9.690, 1.
9.700, 1.
9.710, 1.
9.720, 3.
9.730, 2.
9.740, 0.
9.750, 1.
9.760, 1.
9.770, 1.
9.780, 1.
9.790, 1.
9.800, 1.
9.810, 0.
9.820, 0.
9.830, 0.
9.840, 0.
9.850, 0.
9.860, 0.
9.870, 0.
9.880, 0.
9.890, 0.
9.900, 0.
9.910, 0.
9.920, 0.
9.930, 0.
9.940, 0.
9.950, 0.
9.960, 0.
9.970, 0.
9.980, 0.
9.990, 0.
10.000, 0.
10.010, 0.
10.020, 0.
10.030, 0.
10.040, 0.
10.050, 0.
10.060, 0.
10.070, 0.
10.080, 0.
10.090, 0.
10.100, 0.
10.110, 0.
10.120, 0.
10.130, 0.
#ENDOFDATA   :