File: Figures/10-13-09 ESEM/Outer Shell Pore 2.txt
#FORMAT      : EMSA/MAS Spectral Data File
#VERSION     : 1.0
#TITLE       : Outer Shell Pore 2
#DATE        : 13-OCT-2009
#TIME        : 14:21
#OWNER       :
#NPOINTS     : 1024.
#NCOLUMNS    : 1.
#XUNITS      : keV
#YUNITS      : counts
#DATATYPE    : XY
#XPERCHAN    : 0.0100000
#OFFSET      : -0.100000
#SIGNALTYPE  : EDS
#CHOFFSET    : 10.0000
#LIVETIME    : 60
#REALTIME    : 60.9467
#BEAMKV      : 20.0000
#PROBECUR    : 0.000000
#MAGCAM      : 4734.00
#XPOSITION mm: 0.0000
#YPOSITION mm: 0.0000
#ZPOSITION mm: 0.0000
##OXINSTELEMS: 6,8,11,13,14,16,17,19,20,26,29
##OXINSTLABEL: 6, 0.277, C
##OXINSTLABEL: 8, 0.525, O
##OXINSTLABEL: 14, 1.740, Si
##OXINSTLABEL: 20, 3.692, Ca
##OXINSTLABEL: 20, 4.013, Ca
##OXINSTLABEL: 20, 0.341, Ca
##OXINSTLABEL: 20, 0.306, Ca
##OXINSTLABEL: 13, 1.487, Al
##OXINSTLABEL: 16, 2.308, S
##OXINSTLABEL: 16, 2.464, S
##OXINSTLABEL: 11, 1.041, Na
##OXINSTLABEL: 17, 2.622, Cl
##OXINSTLABEL: 17, 2.816, Cl
##OXINSTLABEL: 17, 0.184, Cl
##OXINSTLABEL: 26, 6.404, Fe
##OXINSTLABEL: 26, 7.058, Fe
##OXINSTLABEL: 26, 0.705, Fe
##OXINSTLABEL: 26, 0.628, Fe
##OXINSTLABEL: 29, 8.048, Cu
##OXINSTLABEL: 29, 8.905, Cu
##OXINSTLABEL: 29, 0.930, Cu
##OXINSTLABEL: 29, 0.832, Cu
##OXINSTLABEL: 29, 0.811, Cu
##OXINSTLABEL: 19, 3.314, K
##OXINSTLABEL: 19, 3.590, K
##OXINSTLABEL: 19, 0.262, K
#SPECTRUM    : Spectral Data Starts Here
-0.100, 0.
-0.090, 12.
-0.080, 20.
-0.070, 51.
-0.060, 105.
-0.050, 192.
-0.040, 316.
-0.030, 503.
-0.020, 740.
-0.010, 1021.
0.000, 1222.
0.010, 1387.
0.020, 1534.
0.030, 1555.
0.040, 1493.
0.050, 1352.
0.060, 1060.
0.070, 757.
0.080, 508.
0.090, 277.
0.100, 146.
0.110, 81.
0.120, 37.
0.130, 13.
0.140, 5.
0.150, 2.
0.160, 2.
0.170, 4.
0.180, 7.
0.190, 10.
0.200, 14.
0.210, 22.
0.220, 34.
0.230, 48.
0.240, 49.
0.250, 63.
0.260, 67.
0.270, 65.
0.280, 53.
0.290, 48.
0.300, 37.
0.310, 28.
0.320, 22.
0.330, 14.
0.340, 6.
0.350, 6.
0.360, 4.
0.370, 3.
0.380, 3.
0.390, 10.
0.400, 9.
0.410, 7.
0.420, 14.
0.430, 19.
0.440, 27.
0.450, 32.
0.460, 47.
0.470, 73.
0.480, 93.
0.490, 117.
0.500, 134.
0.510, 138.
0.520, 141.
0.530, 151.
0.540, 135.
0.550, 106.
0.560, 76.
0.570, 55.
0.580, 32.
0.590, 16.
0.600, 12.
0.610, 12.
0.620, 8.
0.630, 3.
0.640, 2.
0.650, 3.
0.660, 3.
0.670, 2.
0.680, 2.
0.690, 2.
0.700, 3.
0.710, 2.
0.720, 4.
0.730, 7.
0.740, 7.
0.750, 5.
0.760, 3.
0.770, 3.
0.780, 3.
0.790, 6.
0.800, 6.
0.810, 7.
0.820, 3.
0.830, 3.
0.840, 3.
0.850, 5.
0.860, 8.
0.870, 8.
0.880, 6.
0.890, 8.
0.900, 9.
0.910, 12.
0.920, 13.
0.930, 13.
0.940, 14.
0.950, 16.
0.960, 15.
0.970, 14.
0.980, 15.
0.990, 20.
1.000, 20.
1.010, 23.
1.020, 36.
1.030, 27.
1.040, 29.
1.050, 27.
1.060, 21.
1.070, 22.
1.080, 18.
1.090, 18.
1.100, 10.
1.110, 10.
1.120, 13.
1.130, 7.
1.140, 6.
1.150, 8.
1.160, 5.
1.170, 6.
1.180, 7.
1.190, 5.
1.200, 4.
1.210, 6.
1.220, 6.
1.230, 9.
1.240, 13.
1.250, 13.
1.260, 12.
1.270, 8.
1.280, 5.
1.290, 5.
1.300, 4.
1.310, 3.
1.320, 5.
1.330, 7.
1.340, 9.
1.350, 6.
1.360, 6.
1.370, 6.
1.380, 7.
1.390, 7.
1.400, 10.
1.410, 12.
1.420, 15.
1.430, 14.
1.440, 17.
1.450, 21.
1.460, 24.
1.470, 26.
1.480, 26.
1.490, 24.
1.500, 28.
1.510, 26.
1.520, 27.
1.530, 24.
1.540, 19.
1.550, 16.
1.560, 14.
1.570, 9.
1.580, 7.
1.590, 7.
1.600, 9.
1.610, 9.
1.620, 11.
1.630, 18.
1.640, 23.
1.650, 32.
1.660, 44.
1.670, 64.
1.680, 96.
1.690, 119.
1.700, 146.
1.710, 187.
1.720, 199.
1.730, 226.
1.740, 245.
1.750, 221.
1.760, 212.
1.770, 171.
1.780, 135.
1.790, 115.
1.800, 92.
1.810, 55.
1.820, 50.
1.830, 42.
1.840, 30.
1.850, 18.
1.860, 13.
1.870, 16.
1.880, 9.
1.890, 7.
1.900, 8.
1.910, 9.
1.920, 8.
1.930, 7.
1.940, 5.
1.950, 8.
1.960, 6.
1.970, 4.
1.980, 5.
1.990, 7.
2.000, 6.
2.010, 5.
2.020, 4.
2.030, 6.
2.040, 7.
2.050, 6.
2.060, 8.
2.070, 8.
2.080, 5.
2.090, 2.
2.100, 2.
2.110, 5.
2.120, 8.
2.130, 6.
2.140, 6.
2.150, 7.
2.160, 5.
2.170, 5.
2.180, 4.
2.190, 5.
2.200, 5.
2.210, 7.
2.220, 7.
2.230, 8.
2.240, 6.
2.250, 9.
2.260, 11.
2.270, 15.
2.280, 16.
2.290, 20.
2.300, 16.
2.310, 16.
2.320, 19.
2.330, 17.
2.340, 15.
2.350, 15.
2.360, 11.
2.370, 8.
2.380, 7.
2.390, 8.
2.400, 5.
2.410, 4.
2.420, 5.
2.430, 6.
2.440, 4.
2.450, 6.
2.460, 4.
2.470, 3.
2.480, 2.
2.490, 1.
2.500, 5.
2.510, 7.
2.520, 8.
2.530, 6.
2.540, 6.
2.550, 10.
2.560, 10.
2.570, 9.
2.580, 9.
2.590, 12.
2.600, 17.
2.610, 18.
2.620, 20.
2.630, 17.
2.640, 16.
2.650, 15.
2.660, 16.
2.670, 15.
2.680, 12.
2.690, 14.
2.700, 13.
2.710, 10.
2.720, 8.
2.730, 5.
2.740, 2.
2.750, 4.
2.760, 5.
2.770, 6.
2.780, 5.
2.790, 4.
2.800, 6.
2.810, 5.
2.820, 5.
2.830, 6.
2.840, 6.
2.850, 5.
2.860, 7.
2.870, 5.
2.880, 2.
2.890, 2.
2.900, 2.
2.910, 5.
2.920, 4.
2.930, 3.
2.940, 3.
2.950, 3.
2.960, 3.
2.970, 4.
2.980, 6.
2.990, 7.
3.000, 4.
3.010, 3.
3.020, 1.
3.030, 6.
3.040, 6.
3.050, 3.
3.060, 4.
3.070, 3.
3.080, 2.
3.090, 2.
3.100, 3.
3.110, 6.
3.120, 5.
3.130, 6.
3.140, 6.
3.150, 3.
3.160, 4.
3.170, 7.
3.180, 5.
3.190, 3.
3.200, 2.
3.210, 4.
3.220, 4.
3.230, 7.
3.240, 8.
3.250, 6.
3.260, 5.
3.270, 8.
3.280, 7.
3.290, 9.
3.300, 8.
3.310, 9.
3.320, 12.
3.330, 10.
3.340, 8.
3.350, 7.
3.360, 9.
3.370, 10.
3.380, 7.
3.390, 4.
3.400, 5.
3.410, 6.
3.420, 5.
3.430, 4.
3.440, 6.
3.450, 9.
3.460, 5.
3.470, 5.
3.480, 6.
3.490, 6.
3.500, 7.
3.510, 8.
3.520, 5.
3.530, 6.
3.540, 6.
3.550, 7.
3.560, 8.
3.570, 5.
3.580, 7.
3.590, 13.
3.600, 15.
3.610, 15.
3.620, 27.
3.630, 32.
3.640, 38.
3.650, 54.
3.660, 57.
3.670, 50.
3.680, 57.
3.690, 68.
3.700, 62.
3.710, 56.
3.720, 53.
3.730, 42.
3.740, 32.
3.750, 34.
3.760, 28.
3.770, 23.
3.780, 17.
3.790, 17.
3.800, 12.
3.810, 9.
3.820, 6.
3.830, 3.
3.840, 3.
3.850, 4.
3.860, 2.
3.870, 2.
3.880, 4.
3.890, 3.
3.900, 3.
3.910, 2.
3.920, 6.
3.930, 7.
3.940, 8.
3.950, 7.
3.960, 7.
3.970, 8.
3.980, 9.
3.990, 10.
4.000, 11.
4.010, 14.
4.020, 10.
4.030, 10.
4.040, 11.
4.050, 9.
4.060, 9.
4.070, 8.
4.080, 7.
4.090, 8.
4.100, 7.
4.110, 5.
4.120, 4.
4.130, 3.
4.140, 6.
4.150, 6.
4.160, 6.
4.170, 6.
4.180, 2.
4.190, 1.
4.200, 2.
4.210, 2.
4.220, 2.
4.230, 3.
4.240, 2.
4.250, 5.
4.260, 5.
4.270, 2.
4.280, 3.
4.290, 2.
4.300, 3.
4.310, 4.
4.320, 3.
4.330, 3.
4.340, 3.
4.350, 2.
4.360, 2.
4.370, 2.
4.380, 4.
4.390, 4.
4.400, 2.
4.410, 2.
4.420, 4.
4.430, 2.
4.440, 1.
4.450, 4.
4.460, 4.
4.470, 5.
4.480, 5.
4.490, 4.
4.500, 6.
4.510, 6.
4.520, 3.
4.530, 3.
4.540, 3.
4.550, 1.
4.560, 4.
4.570, 5.
4.580, 2.
4.590, 2.
4.600, 2.
4.610, 3.
4.620, 2.
4.630, 1.
4.640, 2.
4.650, 2.
4.660, 1.
4.670, 4.
4.680, 4.
4.690, 2.
4.700, 2.
4.710, 1.
4.720, 4.
4.730, 2.
4.740, 2.
4.750, 2.
4.760, 3.
4.770, 2.
4.780, 3.
4.790, 2.
4.800, 2.
4.810, 1.
4.820, 3.
4.830, 2.
4.840, 2.
4.850, 3.
4.860, 2.
4.870, 1.
4.880, 4.
4.890, 5.
4.900, 5.
4.910, 4.
4.920, 2.
4.930, 3.
4.940, 2.
4.950, 2.
4.960, 2.
4.970, 2.
4.980, 2.
4.990, 3.
5.000, 3.
5.010, 4.
5.020, 3.
5.030, 3.
5.040, 3.
5.050, 2.
5.060, 4.
5.070, 3.
5.080, 0.
5.090, 1.
5.100, 2.
5.110, 3.
5.120, 3.
5.130, 3.
5.140, 2.
5.150, 2.
5.160, 1.
5.170, 1.
5.180, 4.
5.190, 4.
5.200, 3.
5.210, 2.
5.220, 2.
5.230, 1.
5.240, 1.
5.250, 1.
5.260, 1.
5.270, 2.
5.280, 2.
5.290, 4.
5.300, 4.
5.310, 1.
5.320, 1.
5.330, 2.
5.340, 3.
5.350, 3.
5.360, 3.
5.370, 2.
5.380, 2.
5.390, 3.
5.400, 4.
5.410, 3.
5.420, 1.
5.430, 2.
5.440, 3.
5.450, 2.
5.460, 3.
5.470, 2.
5.480, 2.
5.490, 4.
5.500, 3.
5.510, 3.
5.520, 2.
5.530, 3.
5.540, 3.
5.550, 3.
5.560, 3.
5.570, 3.
5.580, 1.
5.590, 2.
5.600, 2.
5.610, 1.
5.620, 1.
5.630, 1.
5.640, 1.
5.650, 3.
5.660, 2.
5.670, 2.
5.680, 1.
5.690, 1.
5.700, 0.
5.710, 2.
5.720, 1.
5.730, 2.
5.740, 4.
5.750, 4.
5.760, 3.
5.770, 2.
5.780, 1.
5.790, 1.
5.800, 0.
5.810, 0.
5.820, 1.
5.830, 2.
5.840, 5.
5.850, 4.
5.860, 3.
5.870, 2.
5.880, 2.
5.890, 2.
5.900, 1.
5.910, 1.
5.920, 2.
5.930, 3.
5.940, 2.
5.950, 1.
5.960, 3.
5.970, 4.
5.980, 3.
5.990, 4.
6.000, 3.
6.010, 3.
6.020, 2.
6.030, 2.
6.040, 3.
6.050, 4.
6.060, 2.
6.070, 1.
6.080, 2.
6.090, 4.
6.100, 3.
6.110, 1.
6.120, 2.
6.130, 3.
6.140, 2.
6.150, 5.
6.160, 3.
6.170, 2.
6.180, 2.
6.190, 3.
6.200, 4.
6.210, 4.
6.220, 4.
6.230, 4.
6.240, 2.
6.250, 0.
6.260, 1.
6.270, 1.
6.280, 4.
6.290, 5.
6.300, 6.
6.310, 7.
6.320, 7.
6.330, 6.
6.340, 3.
6.350, 5.
6.360, 7.
6.370, 8.
6.380, 4.
6.390, 5.
6.400, 7.
6.410, 10.
6.420, 6.
6.430, 6.
6.440, 6.
6.450, 3.
6.460, 5.
6.470, 7.
6.480, 5.
6.490, 1.
6.500, 1.
6.510, 3.
6.520, 2.
6.530, 2.
6.540, 2.
6.550, 2.
6.560, 1.
6.570, 0.
6.580, 1.
6.590, 2.
6.600, 3.
6.610, 3.
6.620, 3.
6.630, 3.
6.640, 1.
6.650, 1.
6.660, 1.
6.670, 0.
6.680, 0.
6.690, 1.
6.700, 1.
6.710, 2.
6.720, 1.
6.730, 1.
6.740, 2.
6.750, 2.
6.760, 1.
6.770, 1.
6.780, 1.
6.790, 1.
6.800, 1.
6.810, 0.
6.820, 1.
6.830, 3.
6.840, 2.
6.850, 2.
6.860, 2.
6.870, 3.
6.880, 3.
6.890, 1.
6.900, 2.
6.910, 3.
6.920, 2.
6.930, 2.
6.940, 2.
6.950, 3.
6.960, 2.
6.970, 3.
6.980, 2.
6.990, 2.
7.000, 3.
7.010, 2.
7.020, 2.
7.030, 3.
7.040, 2.
7.050, 0.
7.060, 1.
7.070, 1.
7.080, 1.
7.090, 2.
7.100, 2.
7.110, 0.
7.120, 1.
7.130, 3.
7.140, 2.
7.150, 2.
7.160, 1.
7.170, 0.
7.180, 1.
7.190, 2.
7.200, 1.
7.210, 1.
7.220, 1.
7.230, 2.
7.240, 2.
7.250, 2.
7.260, 1.
7.270, 0.
7.280, 1.
7.290, 2.
7.300, 1.
7.310, 1.
7.320, 2.
7.330, 3.
7.340, 1.
7.350, 1.
7.360, 1.
7.370, 2.
7.380, 1.
7.390, 1.
7.400, 0.
7.410, 0.
7.420, 2.
7.430, 2.
7.440, 4.
7.450, 2.
7.460, 0.
7.470, 1.
7.480, 1.
7.490, 0.
7.500, 1.
7.510, 2.
7.520, 3.
7.530, 2.
7.540, 0.
7.550, 2.
7.560, 4.
7.570, 4.
7.580, 3.
7.590, 2.
7.600, 0.
7.610, 0.
7.620, 2.
7.630, 1.
7.640, 0.
7.650, 0.
7.660, 0.
7.670, 0.
7.680, 0.
7.690, 0.
7.700, 1.
7.710, 2.
7.720, 2.
7.730, 3.
7.740, 2.
7.750, 1.
7.760, 2.
7.770, 2.
7.780, 1.
7.790, 2.
7.800, 1.
7.810, 1.
7.820, 0.
7.830, 0.
7.840, 1.
7.850, 3.
7.860, 2.
7.870, 0.
7.880, 1.
7.890, 1.
7.900, 1.
7.910, 1.
7.920, 4.
7.930, 5.
7.940, 3.
7.950, 5.
7.960, 5.
7.970, 8.
7.980, 6.
7.990, 4.
8.000, 3.
8.010, 3.
8.020, 5.
8.030, 7.
8.040, 7.
8.050, 5.
8.060, 4.
8.070, 4.
8.080, 4.
8.090, 5.
8.100, 5.
8.110, 7.
8.120, 4.
8.130, 1.
8.140, 3.
8.150, 3.
8.160, 2.
8.170, 1.
8.180, 0.
8.190, 1.
8.200, 1.
8.210, 1.
8.220, 0.
8.230, 1.
8.240, 1.
8.250, 1.
8.260, 2.
8.270, 1.
8.280, 2.
8.290, 2.
8.300, 0.
8.310, 1.
8.320, 1.
8.330, 0.
8.340, 0.
8.350, 1.
8.360, 1.
8.370, 2.
8.380, 2.
8.390, 1.
8.400, 2.
8.410, 1.
8.420, 1.
8.430, 2.
8.440, 1.
8.450, 1.
8.460, 1.
8.470, 0.
8.480, 3.
8.490, 3.
8.500, 1.
8.510, 1.
8.520, 0.
8.530, 1.
8.540, 3.
8.550, 2.
8.560, 2.
8.570, 1.
8.580, 2.
8.590, 2.
8.600, 1.
8.610, 1.
8.620, 2.
8.630, 4.
8.640, 3.
8.650, 0.
8.660, 1.
8.670, 0.
8.680, 1.
8.690, 1.
8.700, 0.
8.710, 0.
8.720, 0.
8.730, 1.
8.740, 2.
8.750, 2.
8.760, 1.
8.770, 0.
8.780, 2.
8.790, 3.
8.800, 2.
8.810, 2.
8.820, 1.
8.830, 1.
8.840, 2.
8.850, 1.
8.860, 2.
8.870, 2.
8.880, 1.
8.890, 2.
8.900, 1.
8.910, 1.
8.920, 1.
8.930, 1.
8.940, 1.
8.950, 1.
8.960, 2.
8.970, 1.
8.980, 1.
8.990, 1.
9.000, 1.
9.010, 1.
9.020, 2.
9.030, 1.
9.040, 0.
9.050, 1.
9.060, 2.
9.070, 1.
9.080, 0.
9.090, 1.
9.100, 2.
9.110, 1.
9.120, 0.
9.130, 1.
9.140, 1.
9.150, 0.
9.160, 1.
9.170, 1.
9.180, 0.
9.190, 1.
9.200, 1.
9.210, 0.
9.220, 1.
9.230, 0.
9.240, 1.
9.250, 2.
9.260, 2.
9.270, 1.
9.280, 1.
9.290, 1.
9.300, 0.
9.310, 1.
9.320, 1.
9.330, 1.
9.340, 0.
9.350, 1.
9.360, 2.
9.370, 1.
9.380, 1.
9.390, 3.
9.400, 1.
9.410, 1.
9.420, 1.
9.430, 1.
9.440, 0.
9.450, 0.
9.460, 1.
9.470, 1.
9.480, 0.
9.490, 1.
9.500, 1.
9.510, 1.
9.520, 0.
9.530, 0.
9.540, 2.
9.550, 3.
9.560, 1.
9.570, 1.
9.580, 2.
9.590, 1.
9.600, 0.
9.610, 1.
9.620, 2.
9.630, 1.
9.640, 0.
9.650, 1.
9.660, 0.
9.670, 1.
9.680, 0.
9.690, 1.
9.700, 1.
9.710, 0.
9.720, 1.
9.730, 1.
9.740, 0.
9.750, 1.
9.760, 1.
9.770, 0.
9.780, 1.
9.790, 1.
9.800, 1.
9.810, 2.
9.820, 1.
9.830, 0.
9.840, 0.
9.850, 0.
9.860, 0.
9.870, 0.
9.880, 0.
9.890, 0.
9.900, 0.
9.910, 0.
9.920, 0.
9.930, 0.
9.940, 0.
9.950, 0.
9.960, 0.
9.970, 0.
9.980, 0.
9.990, 0.
10.000, 0.
10.010, 0.
10.020, 0.
10.030, 0.
10.040, 0.
10.050, 0.
10.060, 0.
10.070, 0.
10.080, 0.
10.090, 0.
10.100, 0.
10.110, 0.
10.120, 0.
10.130, 0.
#ENDOFDATA   :