File: Figures/10-13-09 ESEM/Outer Shell Bulk 500x.txt
#FORMAT      : EMSA/MAS Spectral Data File
#VERSION     : 1.0
#TITLE       : Outer Shell Bulk 500x
#DATE        : 13-OCT-2009
#TIME        : 14:09
#OWNER       :
#NPOINTS     : 1024.
#NCOLUMNS    : 1.
#XUNITS      : keV
#YUNITS      : counts
#DATATYPE    : XY
#XPERCHAN    : 0.0100000
#OFFSET      : -0.100000
#SIGNALTYPE  : EDS
#CHOFFSET    : 10.0000
#LIVETIME    : 60
#REALTIME    : 61.1112
#BEAMKV      : 20.0000
#PROBECUR    : 0.000000
#MAGCAM      : 237.000
#XPOSITION mm: 0.0000
#YPOSITION mm: 0.0000
#ZPOSITION mm: 0.0000
##OXINSTELEMS: 6,8,13,14,17,20,29
##OXINSTLABEL: 14, 1.740, Si
##OXINSTLABEL: 8, 0.525, O
##OXINSTLABEL: 29, 8.048, Cu
##OXINSTLABEL: 29, 8.905, Cu
##OXINSTLABEL: 29, 0.930, Cu
##OXINSTLABEL: 29, 0.832, Cu
##OXINSTLABEL: 29, 0.811, Cu
##OXINSTLABEL: 6, 0.277, C
##OXINSTLABEL: 17, 2.622, Cl
##OXINSTLABEL: 17, 2.816, Cl
##OXINSTLABEL: 17, 0.184, Cl
##OXINSTLABEL: 20, 3.692, Ca
##OXINSTLABEL: 20, 4.013, Ca
##OXINSTLABEL: 20, 0.341, Ca
##OXINSTLABEL: 20, 0.306, Ca
##OXINSTLABEL: 13, 1.487, Al
#SPECTRUM    : Spectral Data Starts Here
-0.100, 0.
-0.090, 6.
-0.080, 17.
-0.070, 41.
-0.060, 88.
-0.050, 175.
-0.040, 323.
-0.030, 518.
-0.020, 779.
-0.010, 990.
0.000, 1239.
0.010, 1488.
0.020, 1601.
0.030, 1634.
0.040, 1586.
0.050, 1390.
0.060, 1108.
0.070, 811.
0.080, 528.
0.090, 293.
0.100, 158.
0.110, 78.
0.120, 31.
0.130, 12.
0.140, 6.
0.150, 4.
0.160, 3.
0.170, 3.
0.180, 5.
0.190, 7.
0.200, 7.
0.210, 16.
0.220, 18.
0.230, 20.
0.240, 28.
0.250, 36.
0.260, 32.
0.270, 33.
0.280, 38.
0.290, 31.
0.300, 30.
0.310, 27.
0.320, 23.
0.330, 13.
0.340, 7.
0.350, 6.
0.360, 6.
0.370, 6.
0.380, 4.
0.390, 6.
0.400, 10.
0.410, 15.
0.420, 19.
0.430, 22.
0.440, 31.
0.450, 67.
0.460, 92.
0.470, 129.
0.480, 165.
0.490, 233.
0.500, 283.
0.510, 308.
0.520, 298.
0.530, 297.
0.540, 261.
0.550, 190.
0.560, 138.
0.570, 106.
0.580, 69.
0.590, 42.
0.600, 27.
0.610, 14.
0.620, 7.
0.630, 5.
0.640, 3.
0.650, 5.
0.660, 5.
0.670, 7.
0.680, 5.
0.690, 2.
0.700, 3.
0.710, 3.
0.720, 2.
0.730, 2.
0.740, 4.
0.750, 4.
0.760, 8.
0.770, 9.
0.780, 9.
0.790, 7.
0.800, 8.
0.810, 8.
0.820, 9.
0.830, 10.
0.840, 12.
0.850, 7.
0.860, 10.
0.870, 16.
0.880, 21.
0.890, 27.
0.900, 30.
0.910, 31.
0.920, 40.
0.930, 40.
0.940, 40.
0.950, 45.
0.960, 39.
0.970, 31.
0.980, 25.
0.990, 23.
1.000, 20.
1.010, 16.
1.020, 21.
1.030, 18.
1.040, 17.
1.050, 15.
1.060, 13.
1.070, 19.
1.080, 18.
1.090, 14.
1.100, 10.
1.110, 6.
1.120, 5.
1.130, 5.
1.140, 8.
1.150, 7.
1.160, 4.
1.170, 8.
1.180, 13.
1.190, 15.
1.200, 11.
1.210, 9.
1.220, 7.
1.230, 6.
1.240, 8.
1.250, 7.
1.260, 8.
1.270, 10.
1.280, 7.
1.290, 8.
1.300, 7.
1.310, 10.
1.320, 12.
1.330, 7.
1.340, 6.
1.350, 10.
1.360, 9.
1.370, 10.
1.380, 14.
1.390, 12.
1.400, 12.
1.410, 11.
1.420, 11.
1.430, 13.
1.440, 12.
1.450, 15.
1.460, 18.
1.470, 18.
1.480, 15.
1.490, 21.
1.500, 23.
1.510, 20.
1.520, 20.
1.530, 17.
1.540, 18.
1.550, 15.
1.560, 14.
1.570, 12.
1.580, 17.
1.590, 19.
1.600, 15.
1.610, 19.
1.620, 27.
1.630, 31.
1.640, 38.
1.650, 75.
1.660, 110.
1.670, 149.
1.680, 205.
1.690, 287.
1.700, 374.
1.710, 450.
1.720, 539.
1.730, 592.
1.740, 620.
1.750, 632.
1.760, 565.
1.770, 490.
1.780, 443.
1.790, 335.
1.800, 243.
1.810, 178.
1.820, 115.
1.830, 93.
1.840, 65.
1.850, 46.
1.860, 34.
1.870, 30.
1.880, 25.
1.890, 18.
1.900, 12.
1.910, 9.
1.920, 6.
1.930, 6.
1.940, 5.
1.950, 6.
1.960, 8.
1.970, 9.
1.980, 8.
1.990, 6.
2.000, 5.
2.010, 6.
2.020, 6.
2.030, 11.
2.040, 13.
2.050, 7.
2.060, 8.
2.070, 7.
2.080, 4.
2.090, 5.
2.100, 4.
2.110, 7.
2.120, 10.
2.130, 9.
2.140, 3.
2.150, 4.
2.160, 6.
2.170, 6.
2.180, 8.
2.190, 4.
2.200, 7.
2.210, 10.
2.220, 8.
2.230, 6.
2.240, 7.
2.250, 8.
2.260, 7.
2.270, 6.
2.280, 7.
2.290, 7.
2.300, 10.
2.310, 10.
2.320, 7.
2.330, 11.
2.340, 10.
2.350, 7.
2.360, 6.
2.370, 9.
2.380, 11.
2.390, 13.
2.400, 10.
2.410, 8.
2.420, 7.
2.430, 6.
2.440, 7.
2.450, 9.
2.460, 7.
2.470, 6.
2.480, 9.
2.490, 8.
2.500, 4.
2.510, 9.
2.520, 10.
2.530, 8.
2.540, 8.
2.550, 6.
2.560, 10.
2.570, 19.
2.580, 19.
2.590, 20.
2.600, 25.
2.610, 23.
2.620, 22.
2.630, 22.
2.640, 21.
2.650, 24.
2.660, 17.
2.670, 13.
2.680, 13.
2.690, 9.
2.700, 7.
2.710, 8.
2.720, 6.
2.730, 6.
2.740, 5.
2.750, 5.
2.760, 6.
2.770, 5.
2.780, 5.
2.790, 8.
2.800, 9.
2.810, 8.
2.820, 10.
2.830, 7.
2.840, 4.
2.850, 4.
2.860, 5.
2.870, 4.
2.880, 4.
2.890, 5.
2.900, 4.
2.910, 3.
2.920, 7.
2.930, 9.
2.940, 9.
2.950, 10.
2.960, 6.
2.970, 6.
2.980, 6.
2.990, 6.
3.000, 10.
3.010, 7.
3.020, 3.
3.030, 3.
3.040, 5.
3.050, 5.
3.060, 6.
3.070, 7.
3.080, 8.
3.090, 6.
3.100, 6.
3.110, 5.
3.120, 4.
3.130, 5.
3.140, 9.
3.150, 9.
3.160, 6.
3.170, 6.
3.180, 6.
3.190, 4.
3.200, 5.
3.210, 10.
3.220, 7.
3.230, 5.
3.240, 8.
3.250, 10.
3.260, 9.
3.270, 7.
3.280, 9.
3.290, 9.
3.300, 9.
3.310, 9.
3.320, 7.
3.330, 9.
3.340, 9.
3.350, 8.
3.360, 9.
3.370, 6.
3.380, 3.
3.390, 5.
3.400, 7.
3.410, 5.
3.420, 4.
3.430, 3.
3.440, 3.
3.450, 4.
3.460, 5.
3.470, 4.
3.480, 3.
3.490, 4.
3.500, 4.
3.510, 5.
3.520, 4.
3.530, 6.
3.540, 7.
3.550, 8.
3.560, 8.
3.570, 11.
3.580, 7.
3.590, 6.
3.600, 6.
3.610, 6.
3.620, 6.
3.630, 13.
3.640, 10.
3.650, 8.
3.660, 10.
3.670, 9.
3.680, 14.
3.690, 13.
3.700, 10.
3.710, 11.
3.720, 11.
3.730, 10.
3.740, 8.
3.750, 9.
3.760, 10.
3.770, 7.
3.780, 6.
3.790, 4.
3.800, 3.
3.810, 6.
3.820, 4.
3.830, 3.
3.840, 4.
3.850, 6.
3.860, 6.
3.870, 3.
3.880, 3.
3.890, 3.
3.900, 4.
3.910, 6.
3.920, 5.
3.930, 2.
3.940, 4.
3.950, 3.
3.960, 3.
3.970, 7.
3.980, 7.
3.990, 4.
4.000, 5.
4.010, 6.
4.020, 6.
4.030, 7.
4.040, 8.
4.050, 7.
4.060, 5.
4.070, 6.
4.080, 5.
4.090, 4.
4.100, 4.
4.110, 4.
4.120, 5.
4.130, 7.
4.140, 7.
4.150, 5.
4.160, 4.
4.170, 4.
4.180, 5.
4.190, 4.
4.200, 3.
4.210, 4.
4.220, 4.
4.230, 5.
4.240, 6.
4.250, 5.
4.260, 3.
4.270, 2.
4.280, 6.
4.290, 4.
4.300, 3.
4.310, 2.
4.320, 3.
4.330, 5.
4.340, 3.
4.350, 3.
4.360, 4.
4.370, 3.
4.380, 5.
4.390, 5.
4.400, 3.
4.410, 3.
4.420, 5.
4.430, 5.
4.440, 3.
4.450, 2.
4.460, 5.
4.470, 5.
4.480, 4.
4.490, 3.
4.500, 4.
4.510, 4.
4.520, 5.
4.530, 7.
4.540, 5.
4.550, 2.
4.560, 3.
4.570, 8.
4.580, 6.
4.590, 2.
4.600, 1.
4.610, 5.
4.620, 5.
4.630, 4.
4.640, 3.
4.650, 2.
4.660, 5.
4.670, 4.
4.680, 1.
4.690, 4.
4.700, 4.
4.710, 4.
4.720, 4.
4.730, 4.
4.740, 5.
4.750, 4.
4.760, 5.
4.770, 5.
4.780, 3.
4.790, 2.
4.800, 3.
4.810, 4.
4.820, 3.
4.830, 3.
4.840, 1.
4.850, 2.
4.860, 5.
4.870, 5.
4.880, 2.
4.890, 2.
4.900, 2.
4.910, 6.
4.920, 4.
4.930, 2.
4.940, 2.
4.950, 5.
4.960, 6.
4.970, 6.
4.980, 4.
4.990, 4.
5.000, 5.
5.010, 4.
5.020, 4.
5.030, 3.
5.040, 2.
5.050, 1.
5.060, 3.
5.070, 3.
5.080, 2.
5.090, 4.
5.100, 5.
5.110, 3.
5.120, 2.
5.130, 4.
5.140, 5.
5.150, 4.
5.160, 4.
5.170, 3.
5.180, 3.
5.190, 4.
5.200, 2.
5.210, 1.
5.220, 4.
5.230, 2.
5.240, 1.
5.250, 3.
5.260, 6.
5.270, 3.
5.280, 4.
5.290, 3.
5.300, 3.
5.310, 2.
5.320, 3.
5.330, 4.
5.340, 4.
5.350, 3.
5.360, 2.
5.370, 4.
5.380, 5.
5.390, 5.
5.400, 3.
5.410, 4.
5.420, 4.
5.430, 3.
5.440, 6.
5.450, 5.
5.460, 3.
5.470, 2.
5.480, 2.
5.490, 5.
5.500, 4.
5.510, 3.
5.520, 2.
5.530, 5.
5.540, 3.
5.550, 1.
5.560, 2.
5.570, 3.
5.580, 4.
5.590, 2.
5.600, 1.
5.610, 1.
5.620, 2.
5.630, 3.
5.640, 4.
5.650, 2.
5.660, 1.
5.670, 2.
5.680, 2.
5.690, 1.
5.700, 1.
5.710, 3.
5.720, 4.
5.730, 5.
5.740, 5.
5.750, 3.
5.760, 2.
5.770, 4.
5.780, 3.
5.790, 1.
5.800, 0.
5.810, 2.
5.820, 2.
5.830, 3.
5.840, 2.
5.850, 4.
5.860, 3.
5.870, 3.
5.880, 3.
5.890, 3.
5.900, 3.
5.910, 3.
5.920, 3.
5.930, 1.
5.940, 1.
5.950, 1.
5.960, 1.
5.970, 2.
5.980, 3.
5.990, 2.
6.000, 1.
6.010, 2.
6.020, 2.
6.030, 3.
6.040, 2.
6.050, 1.
6.060, 2.
6.070, 4.
6.080, 4.
6.090, 2.
6.100, 1.
6.110, 2.
6.120, 4.
6.130, 3.
6.140, 1.
6.150, 3.
6.160, 2.
6.170, 2.
6.180, 3.
6.190, 2.
6.200, 2.
6.210, 2.
6.220, 2.
6.230, 3.
6.240, 3.
6.250, 3.
6.260, 2.
6.270, 2.
6.280, 3.
6.290, 3.
6.300, 2.
6.310, 2.
6.320, 3.
6.330, 3.
6.340, 3.
6.350, 1.
6.360, 3.
6.370, 2.
6.380, 1.
6.390, 3.
6.400, 3.
6.410, 3.
6.420, 3.
6.430, 2.
6.440, 1.
6.450, 1.
6.460, 2.
6.470, 4.
6.480, 3.
6.490, 1.
6.500, 2.
6.510, 2.
6.520, 3.
6.530, 6.
6.540, 5.
6.550, 3.
6.560, 3.
6.570, 2.
6.580, 3.
6.590, 3.
6.600, 1.
6.610, 0.
6.620, 3.
6.630, 4.
6.640, 6.
6.650, 3.
6.660, 1.
6.670, 3.
6.680, 4.
6.690, 5.
6.700, 2.
6.710, 2.
6.720, 3.
6.730, 2.
6.740, 1.
6.750, 1.
6.760, 1.
6.770, 2.
6.780, 1.
6.790, 2.
6.800, 1.
6.810, 0.
6.820, 3.
6.830, 2.
6.840, 3.
6.850, 3.
6.860, 4.
6.870, 4.
6.880, 2.
6.890, 0.
6.900, 1.
6.910, 1.
6.920, 2.
6.930, 2.
6.940, 2.
6.950, 2.
6.960, 2.
6.970, 3.
6.980, 2.
6.990, 3.
7.000, 4.
7.010, 3.
7.020, 3.
7.030, 2.
7.040, 2.
7.050, 2.
7.060, 0.
7.070, 3.
7.080, 2.
7.090, 2.
7.100, 2.
7.110, 2.
7.120, 1.
7.130, 1.
7.140, 2.
7.150, 1.
7.160, 1.
7.170, 2.
7.180, 2.
7.190, 2.
7.200, 1.
7.210, 2.
7.220, 2.
7.230, 2.
7.240, 1.
7.250, 1.
7.260, 1.
7.270, 3.
7.280, 3.
7.290, 2.
7.300, 0.
7.310, 1.
7.320, 3.
7.330, 4.
7.340, 3.
7.350, 3.
7.360, 2.
7.370, 2.
7.380, 1.
7.390, 5.
7.400, 6.
7.410, 4.
7.420, 4.
7.430, 3.
7.440, 2.
7.450, 2.
7.460, 1.
7.470, 1.
7.480, 3.
7.490, 1.
7.500, 1.
7.510, 3.
7.520, 2.
7.530, 0.
7.540, 0.
7.550, 2.
7.560, 1.
7.570, 1.
7.580, 2.
7.590, 1.
7.600, 1.
7.610, 2.
7.620, 1.
7.630, 1.
7.640, 2.
7.650, 2.
7.660, 1.
7.670, 1.
7.680, 0.
7.690, 3.
7.700, 4.
7.710, 2.
7.720, 2.
7.730, 2.
7.740, 1.
7.750, 1.
7.760, 2.
7.770, 2.
7.780, 1.
7.790, 2.
7.800, 3.
7.810, 2.
7.820, 1.
7.830, 2.
7.840, 1.
7.850, 2.
7.860, 3.
7.870, 1.
7.880, 4.
7.890, 7.
7.900, 8.
7.910, 5.
7.920, 5.
7.930, 8.
7.940, 10.
7.950, 15.
7.960, 15.
7.970, 18.
7.980, 22.
7.990, 21.
8.000, 16.
8.010, 18.
8.020, 20.
8.030, 17.
8.040, 16.
8.050, 21.
8.060, 14.
8.070, 17.
8.080, 16.
8.090, 17.
8.100, 13.
8.110, 8.
8.120, 9.
8.130, 10.
8.140, 6.
8.150, 3.
8.160, 4.
8.170, 2.
8.180, 1.
8.190, 1.
8.200, 1.
8.210, 1.
8.220, 0.
8.230, 1.
8.240, 2.
8.250, 1.
8.260, 2.
8.270, 1.
8.280, 2.
8.290, 2.
8.300, 2.
8.310, 1.
8.320, 2.
8.330, 2.
8.340, 2.
8.350, 1.
8.360, 1.
8.370, 1.
8.380, 2.
8.390, 2.
8.400, 1.
8.410, 2.
8.420, 1.
8.430, 2.
8.440, 2.
8.450, 3.
8.460, 2.
8.470, 2.
8.480, 2.
8.490, 2.
8.500, 2.
8.510, 2.
8.520, 1.
8.530, 1.
8.540, 0.
8.550, 1.
8.560, 2.
8.570, 1.
8.580, 0.
8.590, 2.
8.600, 1.
8.610, 1.
8.620, 2.
8.630, 2.
8.640, 3.
8.650, 2.
8.660, 1.
8.670, 1.
8.680, 4.
8.690, 5.
8.700, 3.
8.710, 0.
8.720, 1.
8.730, 1.
8.740, 1.
8.750, 2.
8.760, 4.
8.770, 3.
8.780, 2.
8.790, 1.
8.800, 3.
8.810, 3.
8.820, 1.
8.830, 2.
8.840, 4.
8.850, 4.
8.860, 5.
8.870, 4.
8.880, 3.
8.890, 2.
8.900, 5.
8.910, 3.
8.920, 2.
8.930, 3.
8.940, 3.
8.950, 3.
8.960, 3.
8.970, 2.
8.980, 1.
8.990, 1.
9.000, 3.
9.010, 2.
9.020, 3.
9.030, 2.
9.040, 1.
9.050, 2.
9.060, 3.
9.070, 3.
9.080, 2.
9.090, 1.
9.100, 1.
9.110, 3.
9.120, 1.
9.130, 1.
9.140, 1.
9.150, 0.
9.160, 1.
9.170, 1.
9.180, 3.
9.190, 3.
9.200, 2.
9.210, 2.
9.220, 1.
9.230, 0.
9.240, 1.
9.250, 2.
9.260, 2.
9.270, 1.
9.280, 1.
9.290, 1.
9.300, 3.
9.310, 2.
9.320, 1.
9.330, 2.
9.340, 1.
9.350, 0.
9.360, 1.
9.370, 0.
9.380, 1.
9.390, 1.
9.400, 2.
9.410, 3.
9.420, 2.
9.430, 1.
9.440, 2.
9.450, 2.
9.460, 1.
9.470, 1.
9.480, 2.
9.490, 3.
9.500, 1.
9.510, 0.
9.520, 1.
9.530, 2.
9.540, 1.
9.550, 1.
9.560, 1.
9.570, 0.
9.580, 1.
9.590, 1.
9.600, 0.
9.610, 1.
9.620, 1.
9.630, 1.
9.640, 2.
9.650, 1.
9.660, 0.
9.670, 2.
9.680, 2.
9.690, 0.
9.700, 2.
9.710, 2.
9.720, 0.
9.730, 0.
9.740, 0.
9.750, 0.
9.760, 0.
9.770, 1.
9.780, 1.
9.790, 0.
9.800, 0.
9.810, 2.
9.820, 1.
9.830, 0.
9.840, 0.
9.850, 0.
9.860, 0.
9.870, 0.
9.880, 0.
9.890, 0.
9.900, 0.
9.910, 0.
9.920, 0.
9.930, 0.
9.940, 0.
9.950, 0.
9.960, 0.
9.970, 0.
9.980, 0.
9.990, 0.
10.000, 0.
10.010, 0.
10.020, 0.
10.030, 0.
10.040, 0.
10.050, 0.
10.060, 0.
10.070, 0.
10.080, 0.
10.090, 0.
10.100, 0.
10.110, 0.
10.120, 0.
10.130, 0.
#ENDOFDATA   :