File: Figures/10-13-09 ESEM/Whole Bead 2 12000x Surface.txt
#FORMAT      : EMSA/MAS Spectral Data File
#VERSION     : 1.0
#TITLE       : Whole Bead 2 12000x Surface
#DATE        : 13-OCT-2009
#TIME        : 15:08
#OWNER       :
#NPOINTS     : 1024.
#NCOLUMNS    : 1.
#XUNITS      : keV
#YUNITS      : counts
#DATATYPE    : XY
#XPERCHAN    : 0.0100000
#OFFSET      : -0.100000
#SIGNALTYPE  : EDS
#CHOFFSET    : 10.0000
#LIVETIME    : 60
#REALTIME    : 61.5364
#BEAMKV      : 20.0000
#PROBECUR    : 0.000000
#MAGCAM      : 7574.00
#XPOSITION mm: 0.0000
#YPOSITION mm: 0.0000
#ZPOSITION mm: 0.0000
##OXINSTELEMS: 6,8,13,14,17,19,20,26,29
##OXINSTLABEL: 8, 0.525, O
##OXINSTLABEL: 14, 1.740, Si
##OXINSTLABEL: 6, 0.277, C
##OXINSTLABEL: 29, 8.048, Cu
##OXINSTLABEL: 29, 8.905, Cu
##OXINSTLABEL: 29, 0.930, Cu
##OXINSTLABEL: 29, 0.832, Cu
##OXINSTLABEL: 29, 0.811, Cu
##OXINSTLABEL: 17, 2.622, Cl
##OXINSTLABEL: 17, 2.816, Cl
##OXINSTLABEL: 17, 0.184, Cl
##OXINSTLABEL: 13, 1.487, Al
##OXINSTLABEL: 19, 3.314, K
##OXINSTLABEL: 19, 3.590, K
##OXINSTLABEL: 19, 0.262, K
##OXINSTLABEL: 20, 3.692, Ca
##OXINSTLABEL: 20, 4.013, Ca
##OXINSTLABEL: 20, 0.341, Ca
##OXINSTLABEL: 20, 0.306, Ca
##OXINSTLABEL: 26, 6.404, Fe
##OXINSTLABEL: 26, 7.058, Fe
##OXINSTLABEL: 26, 0.705, Fe
##OXINSTLABEL: 26, 0.628, Fe
#SPECTRUM    : Spectral Data Starts Here
-0.100, 0.
-0.090, 8.
-0.080, 25.
-0.070, 42.
-0.060, 91.
-0.050, 167.
-0.040, 301.
-0.030, 480.
-0.020, 704.
-0.010, 935.
0.000, 1155.
0.010, 1361.
0.020, 1475.
0.030, 1488.
0.040, 1450.
0.050, 1266.
0.060, 998.
0.070, 755.
0.080, 512.
0.090, 292.
0.100, 145.
0.110, 77.
0.120, 43.
0.130, 20.
0.140, 11.
0.150, 11.
0.160, 8.
0.170, 8.
0.180, 15.
0.190, 19.
0.200, 23.
0.210, 24.
0.220, 48.
0.230, 61.
0.240, 77.
0.250, 89.
0.260, 96.
0.270, 104.
0.280, 97.
0.290, 85.
0.300, 68.
0.310, 46.
0.320, 31.
0.330, 27.
0.340, 23.
0.350, 12.
0.360, 8.
0.370, 10.
0.380, 12.
0.390, 19.
0.400, 22.
0.410, 23.
0.420, 32.
0.430, 55.
0.440, 79.
0.450, 107.
0.460, 162.
0.470, 226.
0.480, 300.
0.490, 383.
0.500, 437.
0.510, 439.
0.520, 452.
0.530, 444.
0.540, 415.
0.550, 340.
0.560, 268.
0.570, 189.
0.580, 111.
0.590, 60.
0.600, 33.
0.610, 24.
0.620, 17.
0.630, 13.
0.640, 11.
0.650, 9.
0.660, 10.
0.670, 9.
0.680, 7.
0.690, 12.
0.700, 13.
0.710, 10.
0.720, 10.
0.730, 13.
0.740, 12.
0.750, 14.
0.760, 10.
0.770, 15.
0.780, 19.
0.790, 17.
0.800, 17.
0.810, 16.
0.820, 17.
0.830, 14.
0.840, 16.
0.850, 20.
0.860, 21.
0.870, 33.
0.880, 40.
0.890, 48.
0.900, 59.
0.910, 72.
0.920, 83.
0.930, 89.
0.940, 82.
0.950, 81.
0.960, 82.
0.970, 69.
0.980, 50.
0.990, 49.
1.000, 47.
1.010, 51.
1.020, 56.
1.030, 61.
1.040, 60.
1.050, 58.
1.060, 46.
1.070, 37.
1.080, 40.
1.090, 30.
1.100, 23.
1.110, 28.
1.120, 24.
1.130, 14.
1.140, 12.
1.150, 17.
1.160, 13.
1.170, 14.
1.180, 18.
1.190, 17.
1.200, 19.
1.210, 23.
1.220, 20.
1.230, 15.
1.240, 21.
1.250, 23.
1.260, 20.
1.270, 21.
1.280, 25.
1.290, 21.
1.300, 18.
1.310, 20.
1.320, 16.
1.330, 14.
1.340, 19.
1.350, 24.
1.360, 16.
1.370, 19.
1.380, 18.
1.390, 16.
1.400, 19.
1.410, 21.
1.420, 28.
1.430, 31.
1.440, 27.
1.450, 34.
1.460, 43.
1.470, 42.
1.480, 49.
1.490, 54.
1.500, 50.
1.510, 51.
1.520, 44.
1.530, 43.
1.540, 38.
1.550, 39.
1.560, 35.
1.570, 29.
1.580, 38.
1.590, 30.
1.600, 30.
1.610, 39.
1.620, 54.
1.630, 67.
1.640, 93.
1.650, 125.
1.660, 163.
1.670, 233.
1.680, 345.
1.690, 463.
1.700, 613.
1.710, 726.
1.720, 824.
1.730, 935.
1.740, 953.
1.750, 935.
1.760, 896.
1.770, 771.
1.780, 652.
1.790, 501.
1.800, 364.
1.810, 274.
1.820, 201.
1.830, 148.
1.840, 105.
1.850, 69.
1.860, 56.
1.870, 48.
1.880, 42.
1.890, 33.
1.900, 24.
1.910, 23.
1.920, 23.
1.930, 21.
1.940, 14.
1.950, 11.
1.960, 11.
1.970, 15.
1.980, 16.
1.990, 13.
2.000, 15.
2.010, 15.
2.020, 14.
2.030, 16.
2.040, 17.
2.050, 16.
2.060, 19.
2.070, 15.
2.080, 10.
2.090, 11.
2.100, 13.
2.110, 12.
2.120, 11.
2.130, 11.
2.140, 10.
2.150, 11.
2.160, 14.
2.170, 15.
2.180, 15.
2.190, 12.
2.200, 14.
2.210, 15.
2.220, 20.
2.230, 16.
2.240, 13.
2.250, 21.
2.260, 23.
2.270, 18.
2.280, 22.
2.290, 22.
2.300, 19.
2.310, 19.
2.320, 26.
2.330, 24.
2.340, 24.
2.350, 22.
2.360, 19.
2.370, 13.
2.380, 12.
2.390, 14.
2.400, 19.
2.410, 17.
2.420, 18.
2.430, 18.
2.440, 12.
2.450, 14.
2.460, 13.
2.470, 17.
2.480, 19.
2.490, 20.
2.500, 19.
2.510, 16.
2.520, 18.
2.530, 25.
2.540, 25.
2.550, 29.
2.560, 28.
2.570, 36.
2.580, 34.
2.590, 35.
2.600, 45.
2.610, 45.
2.620, 46.
2.630, 47.
2.640, 41.
2.650, 39.
2.660, 39.
2.670, 37.
2.680, 29.
2.690, 29.
2.700, 21.
2.710, 17.
2.720, 16.
2.730, 13.
2.740, 11.
2.750, 16.
2.760, 17.
2.770, 19.
2.780, 17.
2.790, 15.
2.800, 17.
2.810, 15.
2.820, 16.
2.830, 16.
2.840, 17.
2.850, 14.
2.860, 13.
2.870, 11.
2.880, 9.
2.890, 12.
2.900, 13.
2.910, 16.
2.920, 10.
2.930, 7.
2.940, 12.
2.950, 11.
2.960, 9.
2.970, 8.
2.980, 9.
2.990, 9.
3.000, 10.
3.010, 12.
3.020, 9.
3.030, 13.
3.040, 15.
3.050, 13.
3.060, 14.
3.070, 12.
3.080, 16.
3.090, 10.
3.100, 11.
3.110, 12.
3.120, 6.
3.130, 8.
3.140, 17.
3.150, 18.
3.160, 17.
3.170, 15.
3.180, 15.
3.190, 12.
3.200, 12.
3.210, 10.
3.220, 13.
3.230, 16.
3.240, 22.
3.250, 28.
3.260, 28.
3.270, 26.
3.280, 34.
3.290, 33.
3.300, 40.
3.310, 46.
3.320, 37.
3.330, 28.
3.340, 35.
3.350, 40.
3.360, 29.
3.370, 25.
3.380, 28.
3.390, 20.
3.400, 19.
3.410, 15.
3.420, 17.
3.430, 13.
3.440, 11.
3.450, 13.
3.460, 10.
3.470, 10.
3.480, 16.
3.490, 18.
3.500, 17.
3.510, 12.
3.520, 14.
3.530, 15.
3.540, 13.
3.550, 12.
3.560, 9.
3.570, 11.
3.580, 20.
3.590, 23.
3.600, 26.
3.610, 25.
3.620, 30.
3.630, 37.
3.640, 42.
3.650, 39.
3.660, 45.
3.670, 57.
3.680, 65.
3.690, 54.
3.700, 45.
3.710, 42.
3.720, 44.
3.730, 36.
3.740, 37.
3.750, 35.
3.760, 24.
3.770, 25.
3.780, 17.
3.790, 9.
3.800, 15.
3.810, 10.
3.820, 10.
3.830, 15.
3.840, 13.
3.850, 10.
3.860, 8.
3.870, 7.
3.880, 12.
3.890, 17.
3.900, 12.
3.910, 11.
3.920, 13.
3.930, 10.
3.940, 10.
3.950, 7.
3.960, 11.
3.970, 16.
3.980, 13.
3.990, 16.
4.000, 15.
4.010, 12.
4.020, 14.
4.030, 8.
4.040, 15.
4.050, 15.
4.060, 11.
4.070, 10.
4.080, 14.
4.090, 16.
4.100, 14.
4.110, 8.
4.120, 4.
4.130, 7.
4.140, 7.
4.150, 6.
4.160, 8.
4.170, 7.
4.180, 4.
4.190, 7.
4.200, 10.
4.210, 9.
4.220, 8.
4.230, 9.
4.240, 7.
4.250, 6.
4.260, 6.
4.270, 5.
4.280, 6.
4.290, 10.
4.300, 7.
4.310, 5.
4.320, 6.
4.330, 11.
4.340, 9.
4.350, 6.
4.360, 7.
4.370, 7.
4.380, 10.
4.390, 7.
4.400, 8.
4.410, 7.
4.420, 9.
4.430, 10.
4.440, 7.
4.450, 8.
4.460, 10.
4.470, 9.
4.480, 6.
4.490, 11.
4.500, 12.
4.510, 10.
4.520, 7.
4.530, 6.
4.540, 10.
4.550, 8.
4.560, 6.
4.570, 5.
4.580, 6.
4.590, 7.
4.600, 8.
4.610, 7.
4.620, 7.
4.630, 6.
4.640, 3.
4.650, 3.
4.660, 5.
4.670, 4.
4.680, 6.
4.690, 7.
4.700, 7.
4.710, 9.
4.720, 8.
4.730, 6.
4.740, 8.
4.750, 5.
4.760, 11.
4.770, 13.
4.780, 10.
4.790, 7.
4.800, 7.
4.810, 8.
4.820, 9.
4.830, 8.
4.840, 5.
4.850, 7.
4.860, 11.
4.870, 7.
4.880, 4.
4.890, 6.
4.900, 5.
4.910, 7.
4.920, 8.
4.930, 6.
4.940, 8.
4.950, 8.
4.960, 4.
4.970, 6.
4.980, 10.
4.990, 8.
5.000, 10.
5.010, 11.
5.020, 7.
5.030, 5.
5.040, 6.
5.050, 9.
5.060, 6.
5.070, 4.
5.080, 7.
5.090, 6.
5.100, 8.
5.110, 7.
5.120, 7.
5.130, 6.
5.140, 6.
5.150, 5.
5.160, 5.
5.170, 5.
5.180, 7.
5.190, 7.
5.200, 5.
5.210, 8.
5.220, 7.
5.230, 5.
5.240, 4.
5.250, 5.
5.260, 4.
5.270, 6.
5.280, 9.
5.290, 6.
5.300, 6.
5.310, 7.
5.320, 9.
5.330, 6.
5.340, 2.
5.350, 6.
5.360, 10.
5.370, 10.
5.380, 8.
5.390, 7.
5.400, 5.
5.410, 8.
5.420, 10.
5.430, 8.
5.440, 6.
5.450, 4.
5.460, 5.
5.470, 4.
5.480, 2.
5.490, 5.
5.500, 5.
5.510, 3.
5.520, 3.
5.530, 2.
5.540, 4.
5.550, 6.
5.560, 5.
5.570, 7.
5.580, 5.
5.590, 4.
5.600, 7.
5.610, 7.
5.620, 5.
5.630, 4.
5.640, 5.
5.650, 5.
5.660, 4.
5.670, 3.
5.680, 4.
5.690, 5.
5.700, 5.
5.710, 4.
5.720, 4.
5.730, 5.
5.740, 4.
5.750, 6.
5.760, 5.
5.770, 3.
5.780, 6.
5.790, 6.
5.800, 7.
5.810, 7.
5.820, 8.
5.830, 7.
5.840, 8.
5.850, 7.
5.860, 6.
5.870, 5.
5.880, 7.
5.890, 7.
5.900, 7.
5.910, 7.
5.920, 6.
5.930, 7.
5.940, 7.
5.950, 5.
5.960, 4.
5.970, 5.
5.980, 6.
5.990, 6.
6.000, 5.
6.010, 3.
6.020, 3.
6.030, 3.
6.040, 4.
6.050, 5.
6.060, 6.
6.070, 7.
6.080, 5.
6.090, 5.
6.100, 3.
6.110, 3.
6.120, 3.
6.130, 7.
6.140, 7.
6.150, 7.
6.160, 7.
6.170, 4.
6.180, 4.
6.190, 3.
6.200, 6.
6.210, 5.
6.220, 5.
6.230, 5.
6.240, 4.
6.250, 5.
6.260, 4.
6.270, 3.
6.280, 7.
6.290, 8.
6.300, 7.
6.310, 6.
6.320, 7.
6.330, 9.
6.340, 11.
6.350, 10.
6.360, 8.
6.370, 9.
6.380, 8.
6.390, 9.
6.400, 13.
6.410, 15.
6.420, 9.
6.430, 6.
6.440, 9.
6.450, 10.
6.460, 7.
6.470, 6.
6.480, 6.
6.490, 5.
6.500, 3.
6.510, 3.
6.520, 4.
6.530, 2.
6.540, 6.
6.550, 5.
6.560, 3.
6.570, 4.
6.580, 4.
6.590, 5.
6.600, 4.
6.610, 5.
6.620, 4.
6.630, 2.
6.640, 3.
6.650, 3.
6.660, 3.
6.670, 2.
6.680, 3.
6.690, 5.
6.700, 6.
6.710, 4.
6.720, 4.
6.730, 3.
6.740, 2.
6.750, 5.
6.760, 4.
6.770, 1.
6.780, 4.
6.790, 6.
6.800, 6.
6.810, 5.
6.820, 4.
6.830, 5.
6.840, 7.
6.850, 5.
6.860, 4.
6.870, 4.
6.880, 3.
6.890, 1.
6.900, 4.
6.910, 3.
6.920, 4.
6.930, 5.
6.940, 5.
6.950, 5.
6.960, 4.
6.970, 2.
6.980, 1.
6.990, 4.
7.000, 5.
7.010, 4.
7.020, 4.
7.030, 5.
7.040, 6.
7.050, 5.
7.060, 3.
7.070, 4.
7.080, 6.
7.090, 7.
7.100, 7.
7.110, 8.
7.120, 6.
7.130, 3.
7.140, 3.
7.150, 4.
7.160, 3.
7.170, 3.
7.180, 3.
7.190, 3.
7.200, 3.
7.210, 4.
7.220, 3.
7.230, 5.
7.240, 4.
7.250, 2.
7.260, 4.
7.270, 3.
7.280, 3.
7.290, 2.
7.300, 1.
7.310, 0.
7.320, 1.
7.330, 3.
7.340, 3.
7.350, 2.
7.360, 3.
7.370, 3.
7.380, 2.
7.390, 3.
7.400, 2.
7.410, 2.
7.420, 2.
7.430, 3.
7.440, 4.
7.450, 5.
7.460, 6.
7.470, 4.
7.480, 3.
7.490, 2.
7.500, 4.
7.510, 2.
7.520, 2.
7.530, 4.
7.540, 2.
7.550, 2.
7.560, 3.
7.570, 3.
7.580, 3.
7.590, 3.
7.600, 3.
7.610, 4.
7.620, 3.
7.630, 3.
7.640, 4.
7.650, 4.
7.660, 3.
7.670, 3.
7.680, 4.
7.690, 5.
7.700, 4.
7.710, 2.
7.720, 2.
7.730, 3.
7.740, 2.
7.750, 2.
7.760, 2.
7.770, 2.
7.780, 3.
7.790, 3.
7.800, 2.
7.810, 3.
7.820, 3.
7.830, 3.
7.840, 4.
7.850, 3.
7.860, 5.
7.870, 7.
7.880, 4.
7.890, 6.
7.900, 10.
7.910, 11.
7.920, 15.
7.930, 15.
7.940, 20.
7.950, 27.
7.960, 22.
7.970, 22.
7.980, 25.
7.990, 35.
8.000, 44.
8.010, 45.
8.020, 38.
8.030, 28.
8.040, 31.
8.050, 34.
8.060, 38.
8.070, 35.
8.080, 27.
8.090, 23.
8.100, 18.
8.110, 17.
8.120, 19.
8.130, 12.
8.140, 7.
8.150, 7.
8.160, 4.
8.170, 5.
8.180, 5.
8.190, 3.
8.200, 4.
8.210, 4.
8.220, 3.
8.230, 2.
8.240, 3.
8.250, 3.
8.260, 6.
8.270, 5.
8.280, 4.
8.290, 3.
8.300, 3.
8.310, 4.
8.320, 3.
8.330, 3.
8.340, 3.
8.350, 2.
8.360, 3.
8.370, 4.
8.380, 4.
8.390, 3.
8.400, 2.
8.410, 3.
8.420, 4.
8.430, 3.
8.440, 2.
8.450, 1.
8.460, 3.
8.470, 3.
8.480, 2.
8.490, 3.
8.500, 4.
8.510, 3.
8.520, 4.
8.530, 4.
8.540, 3.
8.550, 3.
8.560, 4.
8.570, 3.
8.580, 3.
8.590, 2.
8.600, 2.
8.610, 2.
8.620, 1.
8.630, 3.
8.640, 3.
8.650, 3.
8.660, 2.
8.670, 2.
8.680, 1.
8.690, 2.
8.700, 2.
8.710, 2.
8.720, 2.
8.730, 6.
8.740, 6.
8.750, 3.
8.760, 3.
8.770, 2.
8.780, 3.
8.790, 5.
8.800, 7.
8.810, 7.
8.820, 5.
8.830, 8.
8.840, 8.
8.850, 6.
8.860, 7.
8.870, 8.
8.880, 5.
8.890, 6.
8.900, 8.
8.910, 8.
8.920, 7.
8.930, 7.
8.940, 5.
8.950, 4.
8.960, 5.
8.970, 5.
8.980, 4.
8.990, 4.
9.000, 3.
9.010, 2.
9.020, 4.
9.030, 3.
9.040, 2.
9.050, 1.
9.060, 0.
9.070, 2.
9.080, 3.
9.090, 2.
9.100, 4.
9.110, 3.
9.120, 3.
9.130, 2.
9.140, 0.
9.150, 4.
9.160, 4.
9.170, 1.
9.180, 2.
9.190, 1.
9.200, 1.
9.210, 2.
9.220, 2.
9.230, 3.
9.240, 3.
9.250, 3.
9.260, 1.
9.270, 0.
9.280, 1.
9.290, 2.
9.300, 3.
9.310, 2.
9.320, 2.
9.330, 2.
9.340, 2.
9.350, 3.
9.360, 2.
9.370, 2.
9.380, 3.
9.390, 2.
9.400, 2.
9.410, 1.
9.420, 3.
9.430, 2.
9.440, 2.
9.450, 4.
9.460, 4.
9.470, 4.
9.480, 4.
9.490, 3.
9.500, 3.
9.510, 3.
9.520, 2.
9.530, 4.
9.540, 4.
9.550, 4.
9.560, 3.
9.570, 1.
9.580, 1.
9.590, 0.
9.600, 2.
9.610, 4.
9.620, 4.
9.630, 2.
9.640, 0.
9.650, 3.
9.660, 3.
9.670, 2.
9.680, 2.
9.690, 1.
9.700, 1.
9.710, 2.
9.720, 2.
9.730, 1.
9.740, 2.
9.750, 4.
9.760, 3.
9.770, 1.
9.780, 2.
9.790, 2.
9.800, 1.
9.810, 1.
9.820, 0.
9.830, 0.
9.840, 0.
9.850, 0.
9.860, 0.
9.870, 0.
9.880, 0.
9.890, 0.
9.900, 0.
9.910, 0.
9.920, 0.
9.930, 0.
9.940, 0.
9.950, 0.
9.960, 0.
9.970, 0.
9.980, 0.
9.990, 0.
10.000, 0.
10.010, 0.
10.020, 0.
10.030, 0.
10.040, 0.
10.050, 0.
10.060, 0.
10.070, 0.
10.080, 0.
10.090, 0.
10.100, 0.
10.110, 0.
10.120, 0.
10.130, 0.
#ENDOFDATA   :